# NB2090 filter curve @ T=90K 
# NB2090
# Wavelength (nm)	T (%)
2053.820	-0.012870961	
2054.019	 0.023577394	
2054.219	-0.005709540	
2054.418	 0.103854187	
2054.618	 0.067023426	
2054.817	 0.204562962	
2055.016	 0.066988051	
2055.216	 0.030737013	
2055.415	 0.059598941	
2055.615	-0.034685720	
2055.814	 0.081778809	
2056.013	 0.067238145	
2056.213	 0.030888818	
2056.412	 0.016254276	
2056.612	 0.059875369	
2056.811	 0.059968505	
2057.010	-0.005641008	
2057.210	 0.016046811	
2057.409	 0.044882875	
2057.609	 0.095481463	
2057.808	-0.034639288	
2058.007	 0.103868544	
2058.207	 0.023605354	
2058.406	 0.060224488	
2058.606	 0.074807197	
2058.805	 0.030807223	
2059.004	 0.052872092	
2059.204	 0.066206224	
2059.403	 0.088355079	
2059.603	 0.030580334	
2059.802	 0.030342899	
2060.001	-0.041788448	
2060.201	 0.030761177	
2060.400	 0.008950098	
2060.600	 0.016203213	
2060.799	 0.038298696	
2060.998	 0.037887141	
2061.198	 0.060032792	
2061.397	 0.030310728	
2061.597	 0.073364176	
2061.796	 0.153546542	
2061.995	 0.023361243	
2062.195	-0.012790290	
2062.394	 0.140124843	
2062.594	 0.016234946	
2062.793	-0.020235810	
2062.992	 0.082165577	
2063.192	 0.096493289	
2063.391	 0.066708110	
2063.591	 0.081000656	
2063.790	 0.023267020	
2063.989	 0.074082807	
2064.189	-0.034309909	
2064.388	 0.153005034	
2064.588	 0.110781588	
2064.787	 0.059641648	
2064.986	 0.169253618	
2065.186	 0.023788702	
2065.385	 0.073745899	
2065.585	 0.080897093	
2065.784	 0.023369074	
2065.983	 0.126123786	
2066.183	 0.087486662	
2066.382	 0.059059285	
2066.582	 0.030616540	
2066.781	 0.038471557	
2066.980	 0.066362351	
2067.180	 0.023439672	
2067.379	 0.147785887	
2067.579	 0.111474447	
2067.778	 0.066612102	
2067.977	 0.282055080	
2068.177	 0.037866756	
2068.376	 0.103777274	
2068.576	 0.124416582	
2068.775	 0.116581596	
2068.974	 0.096580543	
2069.174	 0.133274913	
2069.373	 0.074655227	
2069.573	 0.160395697	
2069.772	 0.133277923	
2069.971	 0.052566100	
2070.171	 0.066449828	
2070.370	 0.195809588	
2070.570	 0.212720856	
2070.769	 0.194178164	
2070.968	 0.228203297	
2071.168	 0.155559301	
2071.367	 0.203162670	
2071.567	 0.190267831	
2071.766	 0.133450970	
2071.965	 0.221049324	
2072.165	 0.145995975	
2072.364	 0.283298194	
2072.564	 0.270970166	
2072.763	 0.338801384	
2072.962	 0.212467372	
2073.162	 0.320757598	
2073.361	 0.283341795	
2073.561	 0.355414867	
2073.760	 0.331418633	
2073.959	 0.412717611	
2074.159	 0.456301719	
2074.358	 0.337882370	
2074.558	 0.436026275	
2074.757	 0.393507242	
2074.956	 0.434967041	
2075.156	 0.551306188	
2075.355	 0.567240596	
2075.555	 0.574848175	
2075.754	 0.657556832	
2075.953	 0.687674046	
2076.153	 0.663693726	
2076.352	 0.713426709	
2076.552	 0.728305995	
2076.751	 0.868442535	
2076.950	 0.899489403	
2077.150	 1.003345966	
2077.349	 1.132987380	
2077.549	 1.110602498	
2077.748	 1.279487252	
2077.947	 1.271685243	
2078.147	 1.246878743	
2078.346	 1.546596050	
2078.546	 1.503318667	
2078.745	 1.659675121	
2078.944	 1.859017849	
2079.144	 2.015429497	
2079.343	 2.119750500	
2079.543	 2.385564804	
2079.742	 2.514025211	
2079.941	 2.753227472	
2080.141	 2.990340948	
2080.340	 3.214896917	
2080.540	 3.556633711	
2080.739	 3.904955387	
2080.938	 4.124121189	
2081.138	 4.719445229	
2081.337	 5.007881165	
2081.537	 5.526757717	
2081.736	 6.036540985	
2081.935	 6.574879646	
2082.135	 7.283745766	
2082.334	 7.796638489	
2082.534	 8.538581848	
2082.733	 9.370301247	
2082.932	10.366232872	
2083.132	11.207015991	
2083.331	12.327150345	
2083.531	13.309496880	
2083.730	14.712342262	
2083.929	15.871336937	
2084.129	17.349479675	
2084.328	18.774963379	
2084.528	20.438049316	
2084.727	22.215480804	
2084.926	24.000116348	
2085.126	26.073036194	
2085.325	28.049587250	
2085.525	30.457702637	
2085.724	32.612701416	
2085.923	35.163021088	
2086.123	37.687656403	
2086.322	40.297473907	
2086.522	42.816425323	
2086.721	45.673713684	
2086.920	48.266227722	
2087.120	51.215881348	
2087.319	53.794879913	
2087.519	56.493206024	
2087.718	59.199638367	
2087.917	61.827404022	
2088.117	64.116432190	
2088.316	66.606018066	
2088.516	68.552383423	
2088.715	70.317718506	
2088.914	72.086120605	
2089.114	73.338813782	
2089.313	74.893722534	
2089.513	75.824829102	
2089.712	76.834510803	
2089.911	77.560546875	
2090.111	78.274269104	
2090.310	78.745033264	
2090.510	79.287246704	
2090.709	79.304801941	
2090.908	79.626747131	
2091.108	79.852256775	
2091.307	79.611656189	
2091.507	79.998718262	
2091.706	80.011589050	
2091.905	79.925086975	
2092.105	80.147842407	
2092.304	80.126365662	
2092.504	80.005218506	
2092.703	80.253509521	
2092.902	80.190818787	
2093.102	80.151748657	
2093.301	80.127784729	
2093.501	79.960350037	
2093.700	80.109329224	
2093.899	80.122390747	
2094.099	80.023117065	
2094.298	80.099578857	
2094.498	79.981460571	
2094.697	79.764030457	
2094.896	79.956237793	
2095.096	79.790962219	
2095.295	79.591308594	
2095.495	79.553863525	
2095.694	79.194519043	
2095.893	79.258102417	
2096.093	79.033798218	
2096.292	78.604164124	
2096.492	78.647598267	
2096.691	78.265937805	
2096.890	78.083610535	
2097.090	77.980781555	
2097.289	77.602699280	
2097.489	77.337738037	
2097.688	77.382926941	
2097.887	76.950477600	
2098.087	76.880905151	
2098.286	76.671859741	
2098.486	76.363777161	
2098.685	76.417457581	
2098.884	76.403465271	
2099.084	76.016868591	
2099.283	76.209403992	
2099.483	76.049545288	
2099.682	75.870330811	
2099.881	75.951339722	
2100.081	75.706970215	
2100.280	75.762596130	
2100.480	75.631111145	
2100.679	75.417427063	
2100.878	75.300865173	
2101.078	75.372413635	
2101.277	74.900299072	
2101.477	74.851539612	
2101.676	74.334419250	
2101.875	73.711952209	
2102.075	73.228302002	
2102.274	72.246856689	
2102.474	71.220672607	
2102.673	70.071723938	
2102.872	68.480720520	
2103.072	66.937591553	
2103.271	65.163024902	
2103.471	62.630474091	
2103.670	60.373104095	
2103.869	57.653541565	
2104.069	54.646579742	
2104.268	51.762981415	
2104.468	48.479621887	
2104.667	45.255374908	
2104.866	42.018230438	
2105.066	38.823776245	
2105.265	35.507312775	
2105.465	32.487983704	
2105.664	29.520830154	
2105.863	26.826318741	
2106.063	24.253396988	
2106.262	21.848651886	
2106.462	19.719345093	
2106.661	17.829378128	
2106.860	15.945334435	
2107.060	14.221091270	
2107.259	12.776386261	
2107.459	11.304111481	
2107.658	10.329123497	
2107.857	 9.110483170	
2108.057	 8.239373207	
2108.256	 7.408815384	
2108.456	 6.637002468	
2108.655	 6.109321594	
2108.854	 5.421940327	
2109.054	 5.059639454	
2109.253	 4.554537296	
2109.453	 4.098350048	
2109.652	 3.612615585	
2109.851	 3.385908604	
2110.051	 3.126991987	
2110.250	 2.783795118	
2110.450	 2.510774612	
2110.649	 2.374244213	
2110.848	 2.168442965	
2111.048	 1.972707510	
2111.247	 1.743803978	
2111.447	 1.674084425	
2111.646	 1.578068137	
2111.845	 1.470604658	
2112.045	 1.354191184	
2112.244	 1.214998603	
2112.444	 1.169836402	
2112.643	 1.006516576	
2112.842	 0.883605123	
2113.042	 0.859512031	
2113.241	 0.836363435	
2113.441	 0.708620965	
2113.640	 0.801159918	
2113.839	 0.685513318	
2114.039	 0.680603743	
2114.238	 0.541183889	
2114.438	 0.654525280	
2114.637	 0.557923138	
2114.836	 0.554706395	
2115.036	 0.307159930	
2115.235	 0.501398385	
2115.435	 0.475174516	
2115.634	 0.434519351	
2115.833	 0.398515582	
2116.033	 0.299071878	
2116.232	 0.238900393	
2116.432	 0.306200355	
2116.631	 0.167383283	
2116.830	 0.371517360	
2117.030	 0.240640521	
2117.229	 0.323253125	
2117.429	 0.285366952	
2117.628	 0.139405742	
2117.827	 0.176289916	
2118.027	 0.218737170	
2118.226	 0.160912722	
2118.426	 0.204142958	
2118.625	 0.131695047	
2118.824	 0.246971071	
2119.024	 0.095785968	
2119.223	 0.183034286	
2119.423	 0.052470587	
2119.622	 0.110617980	
2119.821	 0.052579131	
2120.021	 0.045305990	
2120.220	 0.125349104	
2120.420	 0.152977690	
2120.619	 0.102269262	
2120.818	 0.009022426	
2121.018	 0.008961332	
2121.217	 0.146449149	
2121.417	 0.117584363	
2121.616	 0.052747823	
2121.815	 0.009019551	
2122.015	 0.169476807	
2122.214	 0.074480809	
2122.414	 0.081178188	
2122.613	 0.138729513	
2122.812	 0.037986714	
2123.012	 0.153788149	
2123.211	 0.124524742	
2123.411	 0.095563903	
2123.610	 0.066972665	
2123.809	 0.016276266	
2124.009	 0.067154281	
2124.208	 0.038053345	
2124.408	 0.009038738	
2124.607	 0.023474988	
2124.806	 0.008852926	
2125.006	 0.030617885	
2125.205	 0.088498697	
2125.405	 0.110318527	
2125.604	 0.123475984	
2125.803	 0.045223095	
2126.003	 0.080908775	
2126.202	 0.001794964	
2126.402	 0.132776216	
2126.601	 0.081591964	
2126.800	 0.110900365	
2127.000	 0.030870287	
2127.199	 0.095915087	
2127.399	 0.081486717	
2127.598	 0.016106788	
2127.797	 0.095490314	
2127.997	 0.088210307	
2128.196	 0.102377295	
2128.396	 0.008877252	
2128.595	 0.038034730	
2128.794	 0.052683823	
2128.994	 0.096626453	
2129.193	 0.016255656	
2129.393	 0.037961971	
2129.592	 0.059237935	
2129.791	-0.092930518	
2129.991	 0.008859574	
2130.190	 0.081024975	
2130.390	 0.145839989	
2130.589	 0.045059111	
2130.788	 0.052200776	
2130.988	 0.152803272	
2131.187	 0.038200948	
2131.387	 0.067335054	
2131.586	 0.074007243	
2131.785	 0.037921507	
2131.985	 0.023296343	
2132.184	 0.115645163	
2132.384	 0.167429030	
2132.583	 0.088341437	
2132.782	 0.101693198	
2132.982	 0.073173977	
2133.181	 0.008944543	
2133.381	 0.016314086	
2133.580	 0.052227557	